File: p_data/TGA.csv
date,1. open,2. high,3. low,4. close,5. adjusted close,6. volume,7. dividend amount,8. split coefficient
1999-08-11,0.4063,0.4688,0.4063,0.4688,0.4052,7100.0,0.0,1.0
1999-08-19,0.4531,0.4531,0.4531,0.4531,0.3917,2000.0,0.0,1.0
1999-08-27,0.3594,0.4063,0.3594,0.4063,0.3512,12100.0,0.0,1.0
1999-09-07,0.375,0.4375,0.375,0.4375,0.3782,215800.0,0.0,1.0
1999-09-15,0.4063,0.4063,0.3906,0.4063,0.3512,19200.0,0.0,1.0
1999-09-23,0.375,0.375,0.3438,0.3438,0.2972,33000.0,0.0,1.0
1999-10-01,0.4063,0.4063,0.375,0.375,0.3242,17000.0,0.0,1.0
1999-10-11,0.375,0.375,0.375,0.375,0.3242,0.0,0.0,1.0
1999-10-19,0.3594,0.3594,0.3594,0.3594,0.3107,500.0,0.0,1.0
1999-10-27,0.2969,0.3281,0.2969,0.3281,0.2836,66700.0,0.0,1.0
1999-11-04,0.375,0.375,0.3594,0.375,0.3242,24900.0,0.0,1.0
1999-11-12,0.3594,0.375,0.3594,0.3594,0.3107,3000.0,0.0,1.0
1999-11-22,0.4375,0.4375,0.3438,0.3438,0.2972,4000.0,0.0,1.0
1999-12-01,0.375,0.4375,0.375,0.4375,0.3782,4000.0,0.0,1.0
1999-12-09,0.375,0.4375,0.375,0.4375,0.3782,21600.0,0.0,1.0
1999-12-17,0.4219,0.4219,0.3594,0.3594,0.3107,40300.0,0.0,1.0
1999-12-28,0.4063,0.4375,0.2969,0.3125,0.2701,84100.0,0.0,1.0
2000-01-05,0.3125,0.4219,0.3125,0.3125,0.2701,3000.0,0.0,1.0
2000-01-13,0.3125,0.4063,0.3125,0.4063,0.3512,11300.0,0.0,1.0
2000-01-24,0.3906,0.3906,0.3438,0.3906,0.3377,54600.0,0.0,1.0
2000-02-01,0.4688,0.4688,0.4375,0.4688,0.4052,61400.0,0.0,1.0
2000-02-09,0.5,0.5,0.4688,0.5,0.4322,67100.0,0.0,1.0
2000-02-17,0.4219,0.4219,0.375,0.4219,0.3647,33000.0,0.0,1.0
2000-02-28,0.4219,0.4219,0.3438,0.4219,0.3647,13600.0,0.0,1.0
2000-03-07,0.4063,0.4063,0.4063,0.4063,0.3512,13500.0,0.0,1.0
2000-03-15,0.4531,0.5625,0.4531,0.5,0.4322,128500.0,0.0,1.0
2000-03-23,0.7031,0.7031,0.5938,0.6563,0.5673,66200.0,0.0,1.0
2000-03-31,0.625,0.625,0.5156,0.5938,0.5133,84600.0,0.0,1.0
2000-04-10,0.5938,0.7031,0.5469,0.5469,0.4727,40000.0,0.0,1.0
2000-04-18,0.5938,0.6563,0.5156,0.5938,0.5133,53200.0,0.0,1.0
2000-04-27,0.6875,0.6875,0.625,0.625,0.5403,22000.0,0.0,1.0
2000-05-05,0.5625,0.5938,0.5469,0.5938,0.5133,146900.0,0.0,1.0
2000-05-15,0.5,0.5156,0.4375,0.5,0.4322,127700.0,0.0,1.0
2000-05-23,0.5,0.5156,0.4844,0.5156,0.4457,58200.0,0.0,1.0
2000-06-01,0.4688,0.4688,0.4219,0.4219,0.3647,6500.0,0.0,1.0
2000-06-09,0.4375,0.4531,0.4375,0.4375,0.3782,45900.0,0.0,1.0
2000-06-19,0.4844,0.4844,0.4844,0.4844,0.4187,10300.0,0.0,1.0
2000-06-27,0.4844,0.5625,0.4844,0.5625,0.4862,157300.0,0.0,1.0
2000-07-06,0.4531,0.4844,0.4375,0.4844,0.4187,26600.0,0.0,1.0
2000-07-14,0.4531,0.5,0.4531,0.5,0.4322,12000.0,0.0,1.0
2000-07-24,0.4688,0.5156,0.4688,0.4688,0.4052,19800.0,0.0,1.0
2000-08-01,0.4063,0.4531,0.4063,0.4531,0.3917,47500.0,0.0,1.0
2000-08-09,0.4219,0.4844,0.4219,0.4844,0.4187,156000.0,0.0,1.0
2000-08-17,0.4844,0.5,0.4844,0.4844,0.4187,36000.0,0.0,1.0
2000-08-25,0.7031,0.75,0.6563,0.7031,0.6078,232900.0,0.0,1.0
2000-09-05,0.6406,0.7031,0.625,0.6563,0.5673,42800.0,0.0,1.0
2000-09-13,0.625,0.625,0.5938,0.625,0.5403,58900.0,0.0,1.0
2000-09-21,0.6563,0.7031,0.625,0.625,0.5403,50800.0,0.0,1.0
2000-09-29,0.625,0.6563,0.625,0.6563,0.5673,29900.0,0.0,1.0
2000-10-09,0.6563,0.6563,0.5938,0.5938,0.5133,10500.0,0.0,1.0
2000-10-17,0.9531,0.9531,0.875,0.875,0.7564,244200.0,0.0,1.0
2000-10-25,0.9063,0.9063,0.8125,0.8438,0.7294,73700.0,0.0,1.0
2000-11-02,0.875,0.9219,0.8438,0.8438,0.7294,43500.0,0.0,1.0
2000-11-10,0.7344,0.7344,0.7031,0.7031,0.6078,133500.0,0.0,1.0
2000-11-20,0.6875,0.6875,0.6875,0.6875,0.5943,2500.0,0.0,1.0
2000-11-29,0.625,0.625,0.5625,0.5625,0.4862,67600.0,0.0,1.0
2000-12-07,0.5313,0.5313,0.4844,0.4844,0.4187,43600.0,0.0,1.0
2000-12-15,0.4844,0.5,0.4531,0.4531,0.3917,28600.0,0.0,1.0
2000-12-26,0.4531,0.4531,0.4219,0.4219,0.3647,6800.0,0.0,1.0
2001-01-04,0.4375,0.4531,0.4063,0.4063,0.3512,136900.0,0.0,1.0
2001-01-12,0.375,0.4063,0.375,0.4063,0.3512,49900.0,0.0,1.0
2001-01-23,0.3906,0.4063,0.375,0.4063,0.3512,44900.0,0.0,1.0
2001-01-31,0.3906,0.3906,0.3906,0.3906,0.3377,0.0,0.0,1.0
2001-02-08,0.4219,0.4219,0.4219,0.4219,0.3647,10200.0,0.0,1.0
2001-02-16,0.4375,0.4375,0.3906,0.3906,0.3377,19800.0,0.0,1.0
2001-02-27,0.4063,0.4063,0.4063,0.4063,0.3512,45000.0,0.0,1.0
2001-03-07,0.375,0.375,0.375,0.375,0.3242,30500.0,0.0,1.0
2001-03-15,0.3906,0.3906,0.3438,0.3438,0.2972,88700.0,0.0,1.0
2001-03-23,0.3125,0.3125,0.3125,0.3125,0.2701,77500.0,0.0,1.0
2001-04-02,0.2969,0.2969,0.25,0.2656,0.2296,51700.0,0.0,1.0
2001-04-10,0.3,0.3,0.29,0.29,0.2507,30100.0,0.0,1.0
2001-04-19,0.36,0.39,0.36,0.39,0.3371,11000.0,0.0,1.0
2001-04-27,0.38,0.39,0.36,0.38,0.3285,145700.0,0.0,1.0
2001-05-07,0.35,0.35,0.35,0.35,0.3026,6500.0,0.0,1.0
2001-05-15,0.36,0.37,0.34,0.34,0.2939,62500.0,0.0,1.0
2001-05-23,0.45,0.45,0.41,0.45,0.389,83200.0,0.0,1.0
2001-06-01,0.36,0.39,0.35,0.37,0.3198,83000.0,0.0,1.0
2001-06-11,0.37,0.37,0.34,0.37,0.3198,44200.0,0.0,1.0
2001-06-19,0.34,0.35,0.34,0.34,0.2939,47000.0,0.0,1.0
2001-06-27,0.32,0.32,0.31,0.31,0.268,2000.0,0.0,1.0
2001-07-06,0.28,0.3,0.28,0.3,0.2593,35000.0,0.0,1.0
2001-07-16,0.27,0.27,0.27,0.27,0.2334,1300.0,0.0,1.0
2001-07-24,0.27,0.29,0.27,0.27,0.2334,41500.0,0.0,1.0
2001-08-01,0.27,0.27,0.27,0.27,0.2334,0.0,0.0,1.0
2001-08-09,0.32,0.32,0.32,0.32,0.2766,5000.0,0.0,1.0
2001-08-17,0.27,0.28,0.26,0.26,0.2248,24700.0,0.0,1.0
2001-08-27,0.34,0.35,0.29,0.34,0.2939,63000.0,0.0,1.0
2001-09-05,0.29,0.29,0.29,0.29,0.2507,1000.0,0.0,1.0
2001-09-19,0.24,0.26,0.24,0.26,0.2248,45500.0,0.0,1.0
2001-09-27,0.19,0.22,0.19,0.19,0.1642,59200.0,0.0,1.0
2001-10-05,0.22,0.22,0.19,0.19,0.1642,12600.0,0.0,1.0
2001-10-15,0.19,0.19,0.19,0.19,0.1642,5800.0,0.0,1.0
2001-10-23,0.18,0.19,0.18,0.18,0.1556,20300.0,0.0,1.0
2001-10-31,0.2,0.34,0.2,0.31,0.268,210700.0,0.0,1.0
2001-11-08,0.25,0.25,0.25,0.25,0.2161,0.0,0.0,1.0
2001-11-16,0.24,0.25,0.23,0.24,0.2075,109600.0,0.0,1.0
2001-11-27,0.28,0.28,0.22,0.27,0.2334,101000.0,0.0,1.0
2001-12-05,0.25,0.27,0.24,0.26,0.2248,226200.0,0.0,1.0
2001-12-13,0.3,0.31,0.3,0.3,0.2593,29800.0,0.0,1.0
2001-12-21,0.29,0.33,0.29,0.32,0.2766,26000.0,0.0,1.0
2002-01-02,0.46,0.47,0.42,0.47,0.4063,220900.0,0.0,1.0
2002-01-10,0.4,0.4,0.35,0.37,0.3198,118300.0,0.0,1.0
2002-01-18,0.38,0.45,0.38,0.45,0.389,7000.0,0.0,1.0
2002-01-29,0.4,0.4,0.38,0.38,0.3285,12500.0,0.0,1.0
2002-02-06,0.35,0.4,0.33,0.4,0.3458,120900.0,0.0,1.0
2002-02-14,0.38,0.38,0.3,0.3,0.2593,2300.0,0.0,1.0
2002-02-25,0.27,0.27,0.27,0.27,0.2334,1000.0,0.0,1.0
2002-03-05,0.27,0.28,0.24,0.26,0.2248,18000.0,0.0,1.0
2002-03-13,0.31,0.34,0.3,0.34,0.2939,26000.0,0.0,1.0
2002-03-21,0.34,0.34,0.32,0.34,0.2939,46000.0,0.0,1.0
2002-04-01,0.39,0.39,0.38,0.38,0.3285,11000.0,0.0,1.0
2002-04-09,0.34,0.36,0.31,0.32,0.2766,22600.0,0.0,1.0
2002-04-17,0.32,0.32,0.32,0.32,0.2766,21200.0,0.0,1.0
2002-04-25,0.33,0.34,0.32,0.32,0.2766,39700.0,0.0,1.0
2002-05-03,0.28,0.33,0.28,0.33,0.2853,14600.0,0.0,1.0
2002-05-13,0.36,0.36,0.3,0.34,0.2939,63000.0,0.0,1.0
2002-05-21,0.38,0.4,0.37,0.4,0.3458,7900.0,0.0,1.0
2002-05-30,0.38,0.38,0.35,0.35,0.3026,44100.0,0.0,1.0
2002-06-07,0.36,0.38,0.34,0.35,0.3026,39100.0,0.0,1.0
2002-06-17,0.36,0.36,0.36,0.36,0.3112,0.0,0.0,1.0
2002-06-25,0.37,0.37,0.35,0.35,0.3026,7600.0,0.0,1.0
2002-07-03,0.31,0.33,0.26,0.33,0.2853,77100.0,0.0,1.0
2002-07-12,0.3,0.32,0.3,0.3,0.2593,13800.0,0.0,1.0
2002-07-22,0.31,0.31,0.29,0.29,0.2507,18500.0,0.0,1.0
2002-07-30,0.28,0.29,0.28,0.28,0.242,23500.0,0.0,1.0
2002-08-07,0.31,0.31,0.31,0.31,0.268,10000.0,0.0,1.0
2002-08-15,0.29,0.29,0.29,0.29,0.2507,8300.0,0.0,1.0
2002-08-23,0.32,0.32,0.29,0.29,0.2507,9000.0,0.0,1.0
2002-09-03,0.29,0.31,0.28,0.31,0.268,16800.0,0.0,1.0
2002-09-11,0.3,0.3,0.3,0.3,0.2593,2500.0,0.0,1.0
2002-09-19,0.32,0.34,0.29,0.33,0.2853,45500.0,0.0,1.0
2002-09-27,0.35,0.35,0.34,0.35,0.3026,8100.0,0.0,1.0
2002-10-07,0.34,0.36,0.34,0.36,0.3112,75500.0,0.0,1.0
2002-10-15,0.35,0.37,0.33,0.37,0.3198,31300.0,0.0,1.0
2002-10-23,0.35,0.35,0.34,0.34,0.2939,17700.0,0.0,1.0
2002-10-31,0.3,0.32,0.3,0.32,0.2766,8600.0,0.0,1.0
2002-11-08,0.31,0.31,0.31,0.31,0.268,0.0,0.0,1.0
2002-11-18,0.29,0.33,0.29,0.33,0.2853,7300.0,0.0,1.0
2002-11-26,0.27,0.32,0.27,0.32,0.2766,66500.0,0.0,1.0
2002-12-05,0.28,0.31,0.28,0.31,0.268,33500.0,0.0,1.0
2002-12-13,0.44,0.44,0.4,0.4,0.3458,24400.0,0.0,1.0
2002-12-23,0.41,0.44,0.38,0.41,0.3544,37200.0,0.0,1.0
2003-01-02,0.4,0.4,0.38,0.4,0.3458,16800.0,0.0,1.0
2003-01-10,0.41,0.41,0.38,0.38,0.3285,63000.0,0.0,1.0
2003-01-21,0.45,0.5,0.39,0.44,0.3804,667100.0,0.0,1.0
2003-01-29,0.38,0.38,0.38,0.38,0.3285,17000.0,0.0,1.0
2003-02-06,0.38,0.38,0.38,0.38,0.3285,10400.0,0.0,1.0
2003-02-14,0.4,0.4,0.38,0.38,0.3285,24700.0,0.0,1.0
2003-02-25,0.47,0.47,0.44,0.46,0.3976,97000.0,0.0,1.0
2003-03-05,0.42,0.46,0.42,0.46,0.3976,100500.0,0.0,1.0
2003-03-13,0.45,0.48,0.45,0.47,0.4063,174200.0,0.0,1.0
2003-03-21,0.48,0.48,0.45,0.48,0.4149,46800.0,0.0,1.0
2003-03-31,0.45,0.5,0.45,0.45,0.389,7500.0,0.0,1.0
2003-04-08,0.46,0.47,0.45,0.46,0.3976,139000.0,0.0,1.0
2003-04-16,0.46,0.47,0.44,0.45,0.389,116000.0,0.0,1.0
2003-04-25,0.49,0.49,0.47,0.47,0.4063,5800.0,0.0,1.0
2003-05-05,0.49,0.49,0.48,0.49,0.4236,63800.0,0.0,1.0
2003-05-13,0.47,0.5,0.47,0.47,0.4063,18700.0,0.0,1.0
2003-05-21,0.53,0.53,0.49,0.51,0.4409,159100.0,0.0,1.0
2003-05-30,0.53,0.57,0.53,0.55,0.4754,320600.0,0.0,1.0
2003-06-09,0.51,0.51,0.47,0.5,0.4322,68100.0,0.0,1.0
2003-06-17,0.53,0.53,0.49,0.49,0.4236,51500.0,0.0,1.0
2003-06-25,0.5,0.5,0.48,0.5,0.4322,24700.0,0.0,1.0
2003-07-03,0.51,0.52,0.5,0.52,0.4495,23800.0,0.0,1.0
2003-07-14,0.49,0.53,0.49,0.53,0.4582,53800.0,0.0,1.0
2003-07-22,0.52,0.52,0.5,0.52,0.4495,47700.0,0.0,1.0
2003-07-30,0.55,0.55,0.51,0.55,0.4754,20100.0,0.0,1.0
2003-08-07,0.84,0.89,0.78,0.85,0.7348,1114800.0,0.0,1.0
2003-08-15,0.75,0.78,0.73,0.74,0.6397,198000.0,0.0,1.0
2003-08-25,0.75,0.8,0.73,0.79,0.6829,83800.0,0.0,1.0
2003-09-03,0.99,1.01,0.97,0.97,0.8385,236900.0,0.0,1.0
2003-09-11,1.04,1.04,0.99,1.01,0.8731,133200.0,0.0,1.0
2003-09-19,0.92,0.96,0.92,0.95,0.8212,85800.0,0.0,1.0
2003-09-29,0.95,1.02,0.95,1.01,0.8731,163000.0,0.0,1.0
2003-10-07,1.03,1.04,1.02,1.03,0.8904,53400.0,0.0,1.0
2003-10-15,1.25,1.26,1.15,1.19,1.0287,271900.0,0.0,1.0
2003-10-23,1.16,1.16,1.13,1.16,1.0028,88500.0,0.0,1.0
2003-10-31,1.17,1.21,1.16,1.21,1.046,415900.0,0.0,1.0
2003-11-10,1.79,1.8,1.67,1.71,1.4782,420800.0,0.0,1.0
2003-11-18,1.6,1.79,1.6,1.77,1.5301,218400.0,0.0,1.0
2003-11-26,1.75,1.77,1.72,1.75,1.5128,88100.0,0.0,1.0
2003-12-05,1.74,1.78,1.7,1.73,1.4955,107200.0,0.0,1.0
2003-12-15,2.17,2.25,2.08,2.22,1.9191,635400.0,0.0,1.0
2003-12-23,2.58,2.58,2.35,2.35,2.0314,649700.0,0.0,1.0
2004-01-02,2.48,2.54,2.45,2.52,2.1784,386600.0,0.0,1.0
2004-01-12,2.62,2.78,2.6,2.73,2.3599,793300.0,0.0,1.0
2004-01-21,2.88,2.89,2.82,2.89,2.4982,361400.0,0.0,1.0
2004-01-29,2.53,2.64,2.15,2.35,2.0314,1189300.0,0.0,1.0
2004-02-06,2.02,2.23,1.83,2.22,1.9191,1041700.0,0.0,1.0
2004-02-17,2.53,2.53,2.38,2.41,2.0833,376100.0,0.0,1.0
2004-02-25,2.4,2.41,2.37,2.4,2.0747,208300.0,0.0,1.0
2004-03-04,2.62,2.84,2.55,2.8,2.4204,345000.0,0.0,1.0
2004-03-12,2.41,2.54,2.4,2.43,2.1006,146400.0,0.0,1.0
2004-03-22,2.45,2.45,2.29,2.36,2.0401,240400.0,0.0,1.0
2004-03-30,2.57,2.6,2.45,2.51,2.1697,185400.0,0.0,1.0
2004-04-07,2.78,2.93,2.78,2.92,2.5242,929600.0,0.0,1.0
2004-04-16,2.7,2.75,2.63,2.74,2.3686,189400.0,0.0,1.0
2004-04-26,2.57,2.59,2.5,2.5,2.1611,207500.0,0.0,1.0
2004-05-04,2.27,2.48,2.21,2.48,2.1438,300300.0,0.0,1.0
2004-05-12,2.38,2.38,2.25,2.35,2.0314,82900.0,0.0,1.0
2004-05-20,2.33,2.42,2.32,2.39,2.066,109300.0,0.0,1.0
2004-05-28,2.54,2.54,2.41,2.5,2.1611,141800.0,0.0,1.0
2004-06-08,2.24,2.29,2.24,2.27,1.9623,88300.0,0.0,1.0
2004-06-17,2.47,2.54,2.44,2.53,2.187,168700.0,0.0,1.0
2004-06-25,2.73,2.73,2.65,2.69,2.3253,227300.0,0.0,1.0
2004-07-06,2.8,2.84,2.75,2.78,2.4031,127000.0,0.0,1.0
2004-07-14,2.56,2.68,2.55,2.66,2.2994,238200.0,0.0,1.0
2004-07-22,2.58,2.6,2.52,2.58,2.2303,150100.0,0.0,1.0
2004-07-30,2.4,2.41,2.26,2.4,2.0747,376300.0,0.0,1.0
2004-08-09,2.46,2.51,2.46,2.48,2.1438,31000.0,0.0,1.0
2004-08-17,2.4,2.4,2.28,2.33,2.0141,131900.0,0.0,1.0
2004-08-25,2.36,2.39,2.31,2.35,2.0314,67300.0,0.0,1.0
2004-09-02,2.37,2.37,2.3,2.36,2.0401,103400.0,0.0,1.0
2004-09-13,2.16,2.3,2.16,2.28,1.9709,93600.0,0.0,1.0
2004-09-21,2.77,2.86,2.77,2.84,2.455,375000.0,0.0,1.0
2004-09-29,3.25,3.4,3.11,3.12,2.6971,685400.0,0.0,1.0
2004-10-07,3.99,4.17,3.97,3.98,3.4405,676500.0,0.0,1.0
2004-10-15,3.98,4.0,3.85,3.92,3.3886,224400.0,0.0,1.0
2004-10-25,4.42,4.47,4.2,4.25,3.6739,631600.0,0.0,1.0
2004-11-02,3.79,3.8,3.75,3.78,3.2676,193900.0,0.0,1.0
2004-11-10,3.88,3.88,3.72,3.83,3.3108,138200.0,0.0,1.0
2004-11-18,3.8,3.87,3.75,3.77,3.2589,201200.0,0.0,1.0
2004-11-29,5.0,5.94,4.99,5.6,4.8409,2287000.0,0.0,1.0
2004-12-07,5.0,5.04,4.53,4.55,3.9332,519600.0,0.0,1.0
2004-12-15,4.76,5.05,4.76,5.02,4.3395,463500.0,0.0,1.0
2004-12-23,4.86,5.15,4.82,5.0,4.3222,110200.0,0.0,1.0
2005-01-03,5.27,5.29,4.5,4.88,4.2185,781500.0,0.0,1.0
2005-01-11,4.72,4.77,4.61,4.69,4.0542,160300.0,0.0,1.0
2005-01-20,5.7,5.8,5.59,5.72,4.9446,302500.0,0.0,1.0
2005-01-28,5.94,6.0,5.84,5.98,5.1694,235100.0,0.0,1.0
2005-02-07,7.0,7.03,6.7,6.75,5.835,539000.0,0.0,1.0
2005-02-15,6.79,6.81,6.64,6.78,5.8609,278500.0,0.0,1.0
2005-02-24,8.54,8.71,8.25,8.48,7.3305,509200.0,0.0,1.0
2005-03-04,7.41,7.59,7.01,7.15,6.1808,1251000.0,0.0,1.0
2005-03-14,6.55,6.65,6.2,6.31,5.4546,423300.0,0.0,1.0
2005-03-22,6.66,6.9,6.65,6.67,5.7658,358900.0,0.0,1.0
2005-03-31,5.98,6.54,5.98,6.41,5.5411,690100.0,0.0,1.0
2005-04-08,6.35,6.38,6.15,6.2,5.3595,292400.0,0.0,1.0
2005-04-18,5.44,5.44,4.75,4.85,4.1925,998000.0,0.0,1.0
2005-04-26,5.93,6.14,5.9,6.1,5.2731,694200.0,0.0,1.0
2005-05-04,5.15,5.19,4.96,5.14,4.4432,396400.0,0.0,1.0
2005-05-12,5.21,5.28,4.8,5.01,4.3309,498800.0,0.0,1.0
2005-05-20,4.49,4.6,4.35,4.47,3.8641,292200.0,0.0,1.0
2005-05-31,5.37,5.45,5.07,5.1,4.4087,327700.0,0.0,1.0
2005-06-08,5.6,5.96,5.53,5.8,5.0138,372400.0,0.0,1.0
2005-06-16,6.48,6.5,6.41,6.45,5.5756,257000.0,0.0,1.0
2005-06-24,6.92,7.04,6.8,6.91,5.9733,261400.0,0.0,1.0
2005-07-05,6.75,7.01,6.7,6.96,6.0165,455500.0,0.0,1.0
2005-07-13,6.99,7.02,6.76,6.76,5.8436,444600.0,0.0,1.0
2005-07-21,6.31,6.4,6.25,6.3,5.446,315600.0,0.0,1.0
2005-07-29,6.55,6.95,6.51,6.75,5.835,932000.0,0.0,1.0
2005-08-08,6.28,6.61,6.22,6.43,5.5584,378200.0,0.0,1.0
2005-08-16,6.35,6.36,6.15,6.15,5.3163,253100.0,0.0,1.0
2005-08-24,6.25,6.5,6.16,6.5,5.6189,320300.0,0.0,1.0
2005-09-01,6.23,6.46,6.23,6.43,5.5584,503400.0,0.0,1.0
2005-09-12,6.12,6.18,5.95,6.03,5.2126,657900.0,0.0,1.0
2005-09-20,6.28,6.42,6.27,6.37,5.5065,421100.0,0.0,1.0
2005-09-28,6.41,6.41,6.26,6.35,5.4892,251800.0,0.0,1.0
2005-10-06,6.04,6.04,5.74,5.77,4.9878,557100.0,0.0,1.0
2005-10-14,5.2,5.47,5.18,5.37,4.642,389200.0,0.0,1.0
2005-10-24,4.64,4.8,4.49,4.8,4.1493,306200.0,0.0,1.0
2005-11-01,4.85,5.37,4.85,5.36,4.6334,710300.0,0.0,1.0
2005-11-09,5.24,5.34,5.11,5.22,4.5124,148000.0,0.0,1.0
2005-11-17,5.24,5.28,5.13,5.26,4.547,169000.0,0.0,1.0
2005-11-28,5.1,5.14,5.03,5.07,4.3827,304500.0,0.0,1.0
2005-12-06,5.29,5.37,5.22,5.36,4.6334,302000.0,0.0,1.0
2005-12-14,5.81,5.89,5.71,5.8,5.0138,343800.0,0.0,1.0
2005-12-22,5.39,5.69,5.3,5.38,4.6507,169800.0,0.0,1.0
2006-01-03,5.11,5.25,5.11,5.2,4.4951,362000.0,0.0,1.0
2006-01-11,5.0,5.16,5.0,5.13,4.4346,250400.0,0.0,1.0
2006-01-20,5.21,5.3,5.19,5.22,4.5124,244400.0,0.0,1.0
2006-01-30,5.55,5.85,5.55,5.84,5.0483,410500.0,0.0,1.0
2006-02-07,6.34,6.34,5.9,6.09,5.2644,569700.0,0.0,1.0
2006-02-15,5.6,5.6,5.15,5.17,4.4692,449100.0,0.0,1.0
2006-02-24,6.1,6.2,5.91,6.05,5.2299,702700.0,0.0,1.0
2006-03-06,5.87,6.22,5.7,6.0,5.1866,559600.0,0.0,1.0
2006-03-14,5.6,5.65,5.55,5.57,4.8149,147900.0,0.0,1.0
2006-03-22,5.35,5.55,5.29,5.41,4.6766,177000.0,0.0,1.0
2006-03-30,5.42,5.45,5.38,5.39,4.6593,207500.0,0.0,1.0
2006-04-07,5.7,5.92,5.7,5.9,5.1002,493600.0,0.0,1.0
2006-04-18,6.0,6.05,6.0,6.01,5.1953,206300.0,0.0,1.0
2006-04-26,5.95,6.03,5.95,6.02,5.2039,146700.0,0.0,1.0
2006-05-04,5.85,5.9,5.82,5.85,5.057,159600.0,0.0,1.0
2006-05-12,5.61,5.7,5.44,5.45,4.7112,208600.0,0.0,1.0
2006-05-22,4.9,4.9,4.75,4.85,4.1925,248800.0,0.0,1.0
2006-05-31,5.12,5.19,5.02,5.13,4.4346,87500.0,0.0,1.0
2006-06-08,4.85,4.9,4.55,4.88,4.2185,233400.0,0.0,1.0
2006-06-16,4.8,4.8,4.55,4.66,4.0283,104100.0,0.0,1.0
2006-06-26,4.7,4.76,4.52,4.66,4.0283,154100.0,0.0,1.0
2006-07-05,5.3,5.3,5.02,5.12,4.4259,180300.0,0.0,1.0
2006-07-13,4.91,5.0,4.81,4.82,4.1666,111000.0,0.0,1.0
2006-07-21,4.55,4.55,4.5,4.5,3.89,46700.0,0.0,1.0
2006-07-31,4.8,4.97,4.8,4.95,4.279,126300.0,0.0,1.0
2006-08-08,5.0,5.04,4.91,4.94,4.2703,119300.0,0.0,1.0
2006-08-16,4.81,4.85,4.76,4.8,4.1493,69300.0,0.0,1.0
2006-08-24,4.82,4.82,4.76,4.78,4.132,74500.0,0.0,1.0
2006-09-01,4.89,5.16,4.87,5.08,4.3914,200100.0,0.0,1.0
2006-09-12,4.68,4.7,4.62,4.65,4.0197,176600.0,0.0,1.0
2006-09-20,4.95,4.96,4.66,4.7,4.0629,210200.0,0.0,1.0
2006-09-28,4.74,4.8,4.65,4.7,4.0629,119400.0,0.0,1.0
2006-10-06,4.45,4.49,4.36,4.45,3.8468,183400.0,0.0,1.0
2006-10-16,4.8,4.93,4.8,4.9,4.2358,116700.0,0.0,1.0
2006-10-24,4.72,4.78,4.63,4.68,4.0456,67300.0,0.0,1.0
2006-11-01,4.6,4.72,4.58,4.68,4.0456,90300.0,0.0,1.0
2006-11-09,4.6,4.74,4.6,4.71,4.0715,195400.0,0.0,1.0
2006-11-17,4.81,5.23,4.81,5.22,4.5124,439100.0,0.0,1.0
2006-11-28,5.12,5.12,5.01,5.03,4.3481,128300.0,0.0,1.0
2006-12-06,5.07,5.12,5.02,5.06,4.3741,110700.0,0.0,1.0
2006-12-14,5.34,5.4,5.31,5.35,4.6248,256300.0,0.0,1.0
2006-12-22,4.97,5.07,4.95,4.99,4.3136,79300.0,0.0,1.0
2007-01-04,4.82,4.86,4.6,4.64,4.011,324200.0,0.0,1.0
2007-01-12,4.65,4.77,4.65,4.74,4.0975,54000.0,0.0,1.0
2007-01-23,4.81,5.0,4.8,4.98,4.3049,101200.0,0.0,1.0
2007-01-31,4.84,4.96,4.84,4.96,4.2876,219400.0,0.0,1.0
2007-02-08,4.7,4.79,4.7,4.77,4.1234,45300.0,0.0,1.0
2007-02-16,4.49,4.5,4.38,4.41,3.8122,481800.0,0.0,1.0
2007-02-27,4.56,4.56,4.37,4.44,3.8381,162700.0,0.0,1.0
2007-03-07,4.35,4.54,4.32,4.44,3.8381,164000.0,0.0,1.0
2007-03-15,4.21,4.21,4.09,4.12,3.5615,141600.0,0.0,1.0
2007-03-23,4.0,4.09,3.95,4.09,3.5356,159000.0,0.0,1.0
2007-04-02,3.94,4.1,3.94,4.0,3.4578,119300.0,0.0,1.0
2007-04-11,3.8,3.95,3.8,3.91,3.38,134400.0,0.0,1.0
2007-04-19,3.9,3.98,3.9,3.93,3.3973,124100.0,0.0,1.0
2007-04-27,4.22,4.5,4.13,4.43,3.8295,181400.0,0.0,1.0
2007-05-07,4.03,4.09,4.0,4.0,3.4578,124000.0,0.0,1.0
2007-05-15,3.93,3.95,3.85,3.87,3.3454,207200.0,0.0,1.0
2007-05-23,3.9,4.0,3.81,3.97,3.4318,179500.0,0.0,1.0
2007-06-01,3.99,4.05,3.96,4.01,3.4664,228400.0,0.0,1.0
2007-06-11,4.0,4.03,4.0,4.02,3.4751,69100.0,0.0,1.0
2007-06-19,3.96,4.4,3.92,4.23,3.6566,638900.0,0.0,1.0
2007-06-27,4.18,4.27,4.14,4.27,3.6912,255100.0,0.0,1.0
2007-07-06,4.68,4.9,4.65,4.9,4.2358,361500.0,0.0,1.0
2007-07-16,5.29,5.36,5.08,5.27,4.5556,580900.0,0.0,1.0
2007-07-24,5.3,5.3,4.8,5.04,4.3568,807200.0,0.0,1.0
2007-08-01,4.45,4.45,4.18,4.33,3.743,613100.0,0.0,1.0
2007-08-09,3.83,3.88,3.67,3.8,3.2849,600000.0,0.0,1.0
2007-08-17,3.79,3.88,3.55,3.88,3.354,294100.0,0.0,1.0
2007-08-27,4.17,4.17,4.05,4.11,3.5529,117000.0,0.0,1.0
2007-09-05,4.09,4.1,3.98,4.03,3.4837,85500.0,0.0,1.0
2007-09-13,4.5,4.55,4.43,4.51,3.8986,113000.0,0.0,1.0
2007-09-21,4.65,4.79,4.6,4.78,4.132,183300.0,0.0,1.0
2007-10-01,5.07,5.13,4.77,5.01,4.3309,621700.0,0.0,1.0
2007-10-09,4.99,5.1,4.98,5.1,4.4087,111800.0,0.0,1.0
2007-10-17,5.29,5.63,5.25,5.56,4.8063,576200.0,0.0,1.0
2007-10-25,5.5,5.54,5.4,5.5,4.7544,263200.0,0.0,1.0
2007-11-02,5.75,5.8,5.45,5.7,4.9273,383800.0,0.0,1.0
2007-11-12,5.55,5.55,5.1,5.1,4.4087,429500.0,0.0,1.0
2007-11-20,5.19,5.37,5.19,5.36,4.6334,132500.0,0.0,1.0
2007-11-29,5.28,5.32,5.21,5.25,4.5383,129900.0,0.0,1.0
2007-12-07,5.27,5.38,5.23,5.33,4.6075,145800.0,0.0,1.0
2007-12-17,5.3,5.54,5.3,5.45,4.7112,160700.0,0.0,1.0
2007-12-26,5.2,5.25,5.11,5.24,4.5297,70900.0,0.0,1.0
2008-01-04,5.33,5.35,5.04,5.04,4.3568,147800.0,0.0,1.0
2008-01-14,5.28,5.4,5.18,5.39,4.6593,140000.0,0.0,1.0
2008-01-23,4.54,4.69,4.26,4.5,3.89,271500.0,0.0,1.0
2008-01-31,4.73,4.86,4.73,4.8,4.1493,57800.0,0.0,1.0
2008-02-08,4.86,5.0,4.81,4.85,4.1925,82000.0,0.0,1.0
2008-02-19,5.45,5.45,5.27,5.3,4.5815,169700.0,0.0,1.0
2008-02-27,5.49,5.5,5.41,5.5,4.7544,120100.0,0.0,1.0
2008-03-06,5.44,5.57,5.44,5.48,4.7371,159800.0,0.0,1.0
2008-03-14,5.09,5.11,4.87,4.91,4.2444,188900.0,0.0,1.0
2008-03-25,4.62,4.68,4.46,4.68,4.0456,105100.0,0.0,1.0
2008-04-02,4.83,4.84,4.74,4.79,4.1407,121100.0,0.0,1.0
2008-04-10,4.67,4.79,4.65,4.76,4.1147,120900.0,0.0,1.0
2008-04-18,4.95,5.0,4.93,5.0,4.3222,205300.0,0.0,1.0
2008-04-28,4.79,4.8,4.71,4.75,4.1061,66800.0,0.0,1.0
2008-05-06,4.86,4.93,4.78,4.81,4.158,231200.0,0.0,1.0
2008-05-14,4.86,4.89,4.83,4.85,4.1925,142700.0,0.0,1.0
2008-05-22,5.2,5.36,5.18,5.23,4.521,130300.0,0.0,1.0
2008-06-02,5.12,5.24,5.12,5.16,4.4605,96100.0,0.0,1.0
2008-06-10,5.01,5.19,4.99,5.14,4.4432,338500.0,0.0,1.0
2008-06-18,5.17,5.35,5.14,5.33,4.6075,273000.0,0.0,1.0
2008-06-26,5.28,5.34,5.18,5.22,4.5124,88700.0,0.0,1.0
2008-07-07,4.85,4.88,4.65,4.72,4.0802,305700.0,0.0,1.0
2008-07-15,4.7,4.79,4.58,4.7,4.0629,370400.0,0.0,1.0
2008-07-23,4.3,4.3,4.06,4.09,3.5356,205000.0,0.0,1.0
2008-07-31,4.25,4.3,4.1,4.22,3.6479,135000.0,0.0,1.0
2008-08-08,3.85,3.91,3.7,3.77,3.2589,261700.0,0.0,1.0
2008-08-18,3.87,4.0,3.8,3.81,3.2935,129900.0,0.0,1.0
2008-08-26,3.91,3.92,3.76,3.77,3.2589,281800.0,0.0,1.0
2008-09-04,3.77,3.84,3.69,3.78,3.2676,124400.0,0.0,1.0
2008-09-12,3.26,3.37,3.23,3.31,2.8613,127400.0,0.0,1.0
2008-09-22,3.36,3.36,3.16,3.17,2.7403,202400.0,0.0,1.0
2008-09-30,2.85,3.2,2.71,3.07,2.6538,196500.0,0.0,1.0
2008-10-08,2.28,2.28,1.9,2.06,1.7807,380000.0,0.0,1.0
2008-10-16,1.75,1.83,1.7,1.83,1.5819,131700.0,0.0,1.0
2008-10-24,1.73,1.82,1.65,1.79,1.5474,108500.0,0.0,1.0
2008-11-03,2.3,2.41,2.2,2.41,2.0833,264500.0,0.0,1.0
2008-11-11,2.4,2.44,2.23,2.36,2.0401,163300.0,0.0,1.0
2008-11-19,2.09,2.16,1.93,1.95,1.6857,96700.0,0.0,1.0
2008-11-28,2.12,2.14,2.0,2.14,1.8499,39100.0,0.0,1.0
2008-12-08,1.94,2.06,1.94,2.01,1.7375,78700.0,0.0,1.0
2008-12-16,2.25,2.56,2.25,2.51,2.1697,348600.0,0.0,1.0
2008-12-24,2.25,2.49,2.1,2.25,1.945,80000.0,0.0,1.0
2009-01-05,2.65,2.67,2.31,2.67,2.3081,240200.0,0.0,1.0
2009-01-13,2.35,2.5,2.35,2.39,2.066,60400.0,0.0,1.0
2009-01-22,2.31,2.4,2.31,2.38,2.0574,46900.0,0.0,1.0
2009-01-30,3.0,3.12,2.88,2.97,2.5674,99000.0,0.0,1.0
2009-02-09,2.8,2.84,2.77,2.81,2.4291,59700.0,0.0,1.0
2009-02-18,2.62,2.65,2.53,2.56,2.213,124900.0,0.0,1.0
2009-02-26,2.67,2.82,2.62,2.69,2.3253,62000.0,0.0,1.0
2009-03-06,2.49,2.56,2.41,2.52,2.1784,81200.0,0.0,1.0
2009-03-16,2.68,2.68,2.52,2.62,2.2648,108200.0,0.0,1.0
2009-03-24,2.86,2.86,2.7,2.75,2.3772,57500.0,0.0,1.0
2009-04-01,2.73,2.81,2.71,2.76,2.3859,91800.0,0.0,1.0
2009-04-09,2.39,2.59,2.39,2.59,2.2389,470200.0,0.0,1.0
2009-04-20,2.49,2.49,2.36,2.4,2.0747,108900.0,0.0,1.0
2009-04-28,2.4,2.53,2.4,2.49,2.1525,110400.0,0.0,1.0
2009-05-06,2.77,2.88,2.77,2.88,2.4896,209500.0,0.0,1.0
2009-05-14,2.61,2.61,2.52,2.54,2.1957,154300.0,0.0,1.0
2009-05-22,2.55,2.71,2.51,2.57,2.2216,85400.0,0.0,1.0
2009-06-02,2.74,2.87,2.74,2.87,2.4809,229300.0,0.0,1.0
2009-06-10,2.8,2.9,2.8,2.88,2.4896,360900.0,0.0,1.0
2009-06-18,2.72,2.72,2.66,2.68,2.3167,40000.0,0.0,1.0
2009-06-26,2.67,2.75,2.64,2.73,2.3599,82100.0,0.0,1.0
2009-07-07,2.47,2.54,2.42,2.43,2.1006,100200.0,0.0,1.0
2009-07-15,2.49,2.57,2.49,2.57,2.2216,111600.0,0.0,1.0
2009-07-23,2.97,3.04,2.94,3.0,2.5933,186100.0,0.0,1.0
2009-07-31,3.11,3.17,3.08,3.11,2.6884,124900.0,0.0,1.0
2009-08-10,3.06,3.23,3.06,3.14,2.7143,113200.0,0.0,1.0
2009-08-18,3.05,3.09,3.05,3.09,2.6711,70000.0,0.0,1.0
2009-08-26,3.2,3.2,3.06,3.13,2.7057,83400.0,0.0,1.0
2009-09-03,3.1,3.21,3.06,3.1,2.6798,79900.0,0.0,1.0
2009-09-14,3.35,3.35,3.25,3.32,2.8699,176600.0,0.0,1.0
2009-09-22,3.65,3.78,3.62,3.64,3.1466,93100.0,0.0,1.0
2009-09-30,3.46,3.58,3.46,3.57,3.0861,49300.0,0.0,1.0
2009-10-08,3.81,3.92,3.81,3.89,3.3627,144900.0,0.0,1.0
2009-10-16,4.44,4.44,4.23,4.41,3.8122,189800.0,0.0,1.0
2009-10-26,4.41,4.45,4.15,4.2,3.6307,208600.0,0.0,1.0
2009-11-03,3.73,3.98,3.68,3.98,3.4405,187000.0,0.0,1.0
2009-11-11,3.55,3.56,3.41,3.56,3.0774,114000.0,0.0,1.0
2009-11-19,3.5,3.59,3.4,3.44,2.9737,97100.0,0.0,1.0
2009-11-30,3.7,3.78,3.56,3.56,3.0774,47300.0,0.0,1.0
2009-12-08,3.48,3.48,3.4,3.44,2.9737,39400.0,0.0,1.0
2009-12-16,3.49,3.52,3.44,3.44,2.9737,65900.0,0.0,1.0
2009-12-24,3.47,3.47,3.35,3.36,2.9045,50400.0,0.0,1.0
2010-01-05,3.5,3.58,3.41,3.57,3.0861,95800.0,0.0,1.0
2010-01-13,3.67,3.75,3.62,3.7,3.1984,61500.0,0.0,1.0
2010-01-22,3.45,3.46,3.44,3.45,2.9823,83300.0,0.0,1.0
2010-02-01,3.6,3.75,3.6,3.75,3.2417,70100.0,0.0,1.0
2010-02-09,3.79,3.79,3.66,3.76,3.2503,77000.0,0.0,1.0
2010-02-18,3.92,4.03,3.92,4.03,3.4837,107600.0,0.0,1.0
2010-02-26,3.84,3.93,3.81,3.85,3.3281,75300.0,0.0,1.0
2010-03-08,3.94,4.05,3.92,4.01,3.4664,78200.0,0.0,1.0
2010-03-16,4.57,4.72,4.43,4.69,4.0542,228900.0,0.0,1.0
2010-03-24,4.72,4.98,4.65,4.91,4.2444,294300.0,0.0,1.0
2010-04-01,5.83,6.25,5.83,6.11,5.2817,718400.0,0.0,1.0
2010-04-12,6.38,6.63,6.34,6.54,5.6534,296100.0,0.0,1.0
2010-04-20,6.86,7.09,6.86,7.04,6.0857,679700.0,0.0,1.0
2010-04-28,6.88,7.19,6.81,7.13,6.1635,353600.0,0.0,1.0
2010-05-06,7.26,7.57,6.18,6.94,5.9992,735800.0,0.0,1.0
2010-05-14,7.3,7.35,7.1,7.3,6.3104,232600.0,0.0,1.0
2010-05-24,6.83,6.91,6.48,6.52,5.6362,98900.0,0.0,1.0
2010-06-02,7.27,7.66,7.23,7.6,6.5698,588900.0,0.0,1.0
2010-06-10,7.65,7.69,7.55,7.68,6.6389,155500.0,0.0,1.0
2010-06-18,7.78,7.9,7.71,7.9,6.8291,312500.0,0.0,1.0
2010-06-28,7.65,7.78,7.49,7.66,6.6216,224600.0,0.0,1.0
2010-07-07,7.01,7.45,7.01,7.45,6.4401,103500.0,0.0,1.0
2010-07-15,7.48,7.52,7.25,7.4,6.3969,200600.0,0.0,1.0
2010-07-23,7.29,7.55,7.26,7.5,6.4833,156000.0,0.0,1.0
2010-08-02,7.65,7.69,7.48,7.57,6.5438,90300.0,0.0,1.0
2010-08-10,7.67,7.72,7.63,7.69,6.6476,132500.0,0.0,1.0
2010-08-18,7.77,7.87,7.69,7.77,6.7167,127200.0,0.0,1.0
2010-08-26,7.46,7.47,7.31,7.35,6.3536,37000.0,0.0,1.0
2010-09-03,7.4,7.53,7.37,7.48,6.466,96100.0,0.0,1.0
2010-09-14,7.95,8.09,7.85,7.86,6.7945,321500.0,0.0,1.0
2010-09-22,8.87,8.95,8.79,8.83,7.633,202000.0,0.0,1.0
2010-09-30,9.16,9.55,9.16,9.46,8.1776,195600.0,0.0,1.0
2010-10-08,9.37,9.88,9.32,9.83,8.4975,162700.0,0.0,1.0
2010-10-18,10.45,10.72,10.41,10.67,9.2236,146200.0,0.0,1.0
2010-10-26,10.54,11.05,10.46,10.67,9.2236,379300.0,0.0,1.0
2010-11-03,11.7,11.78,11.45,11.75,10.1572,419900.0,0.0,1.0
2010-11-11,15.16,15.6,14.9,15.54,13.4334,544100.0,0.0,1.0
2010-11-19,14.82,15.04,14.55,14.9,12.8802,417300.0,0.0,1.0
2010-11-30,16.56,16.75,16.41,16.61,14.3584,343100.0,0.0,1.0
2010-12-08,18.19,18.29,16.6,17.59,15.2055,1665100.0,0.0,1.0
2010-12-16,14.08,14.83,13.73,14.68,12.69,1205100.0,0.0,1.0
2010-12-27,16.46,16.5,15.6,15.75,13.615,487800.0,0.0,1.0
2011-01-04,15.92,16.06,15.51,15.79,13.6495,450900.0,0.0,1.0
2011-01-12,15.41,15.41,15.2,15.32,13.2432,185600.0,0.0,1.0
2011-01-21,14.61,14.77,14.46,14.52,12.5517,168200.0,0.0,1.0
2011-01-31,12.85,13.01,11.75,12.15,10.503,2505500.0,0.0,1.0
2011-02-08,15.33,15.4,14.92,14.99,12.958,1027800.0,0.0,1.0
2011-02-16,14.97,15.08,14.8,15.05,13.0098,569400.0,0.0,1.0
2011-02-25,13.83,14.36,13.83,14.29,12.3529,199900.0,0.0,1.0
2011-03-07,15.0,15.16,14.62,15.03,12.9926,328000.0,0.0,1.0
2011-03-15,12.65,13.46,12.65,13.37,11.5576,221600.0,0.0,1.0
2011-03-23,13.83,14.12,13.64,14.03,12.1281,267300.0,0.0,1.0
2011-03-31,15.32,15.42,15.17,15.2,13.1395,174300.0,0.0,1.0
2011-04-08,15.34,15.59,15.22,15.41,13.321,178800.0,0.0,1.0
2011-04-18,13.99,13.99,13.37,13.78,11.912,155100.0,0.0,1.0
2011-04-27,14.21,14.46,14.12,14.31,12.3702,213000.0,0.0,1.0
2011-05-05,12.81,12.91,12.3,12.45,10.7623,270500.0,0.0,1.0
2011-05-13,13.52,13.61,13.12,13.13,11.3501,158000.0,0.0,1.0
2011-05-23,13.31,13.35,13.0,13.11,11.3328,133700.0,0.0,1.0
2011-06-01,15.48,15.55,14.67,14.77,12.7678,202000.0,0.0,1.0
2011-06-09,13.12,13.58,13.04,13.38,11.5662,144700.0,0.0,1.0
2011-06-17,12.0,12.05,11.74,11.9,10.2869,152800.0,0.0,1.0
2011-06-27,10.82,10.82,10.17,10.5,9.0766,258800.0,0.0,1.0
2011-07-06,12.42,12.66,12.11,12.53,10.8314,175800.0,0.0,1.0
2011-07-14,11.96,12.15,11.69,11.76,10.1658,94200.0,0.0,1.0
2011-07-22,12.16,12.16,11.88,12.0,10.3733,71400.0,0.0,1.0
2011-08-01,11.01,11.18,10.83,10.93,9.4483,73200.0,0.0,1.0
2011-08-09,9.58,9.76,8.44,9.19,7.9442,372700.0,0.0,1.0
2011-08-17,9.58,9.8,9.25,9.38,8.1085,103600.0,0.0,1.0
2011-08-25,9.18,9.3,8.83,8.93,7.7195,100900.0,0.0,1.0
2011-09-02,9.36,9.53,9.2,9.33,8.0652,202400.0,0.0,1.0
2011-09-13,9.28,9.32,9.07,9.17,7.9269,76900.0,0.0,1.0
2011-09-21,9.76,9.99,9.3,9.33,8.0652,100700.0,0.0,1.0
2011-09-29,9.06,9.18,8.41,8.57,7.4083,100700.0,0.0,1.0
2011-10-07,8.67,8.73,8.24,8.43,7.2872,70400.0,0.0,1.0
2011-10-17,9.0,9.03,8.71,8.82,7.6244,87100.0,0.0,1.0
2011-10-25,9.95,10.54,9.82,10.32,8.921,193400.0,0.0,1.0
2011-11-02,10.01,10.12,9.8,9.95,8.6012,64500.0,0.0,1.0
2011-11-10,9.69,9.69,9.2,9.27,8.0134,201300.0,0.0,1.0
2011-11-18,8.89,8.89,8.41,8.56,7.3996,100500.0,0.0,1.0
2011-11-29,7.91,8.09,7.84,7.91,6.8377,106900.0,0.0,1.0
2011-12-07,8.12,8.12,7.8,8.0,6.9155,98300.0,0.0,1.0
2011-12-15,6.99,6.99,6.8,6.87,5.9387,48900.0,0.0,1.0
2011-12-23,8.05,8.06,7.88,7.94,6.8637,92200.0,0.0,1.0
2012-01-04,8.21,8.25,8.1,8.12,7.0193,48900.0,0.0,1.0
2012-01-12,8.99,9.09,8.92,8.96,7.7454,110100.0,0.0,1.0
2012-01-23,9.41,9.97,9.41,9.77,8.4456,133200.0,0.0,1.0
2012-01-31,9.66,9.9,9.46,9.7,8.3851,118200.0,0.0,1.0
2012-02-08,10.36,10.55,10.25,10.32,8.921,311800.0,0.0,1.0
2012-02-16,10.3,10.44,10.23,10.39,8.9815,85400.0,0.0,1.0
2012-02-27,11.13,11.22,10.89,11.17,9.6558,105800.0,0.0,1.0
2012-03-06,11.14,11.26,10.83,11.22,9.699,195100.0,0.0,1.0
2012-03-14,12.21,12.29,11.72,11.81,10.2091,217900.0,0.0,1.0
2012-03-22,11.59,11.7,11.29,11.61,10.0362,108200.0,0.0,1.0
2012-03-30,12.15,12.15,12.02,12.08,10.4425,56800.0,0.0,1.0
2012-04-10,12.4,12.66,12.17,12.37,10.6931,80600.0,0.0,1.0
2012-04-18,12.79,13.06,12.71,13.04,11.2723,96700.0,0.0,1.0
2012-04-26,13.47,13.96,13.38,13.89,12.0071,114900.0,0.0,1.0
2012-05-04,13.4,13.44,12.93,13.29,11.4884,116500.0,0.0,1.0
2012-05-14,11.95,11.95,11.02,11.2,9.6817,206200.0,0.0,1.0
2012-05-22,10.55,10.75,10.32,10.58,9.1458,102000.0,0.0,1.0
2012-05-31,9.93,10.36,9.64,10.3,8.9037,124700.0,0.0,1.0
2012-06-08,9.57,9.92,9.57,9.78,8.4542,77600.0,0.0,1.0
2012-06-18,9.58,9.58,9.29,9.36,8.0912,137900.0,0.0,1.0
2012-06-26,8.12,8.16,7.82,8.02,6.9328,183600.0,0.0,1.0
2012-07-05,9.51,9.51,8.84,9.0,7.78,269700.0,0.0,1.0
2012-07-13,8.55,8.99,8.55,8.95,7.7367,161800.0,0.0,1.0
2012-07-23,8.52,8.85,8.5,8.76,7.5725,85200.0,0.0,1.0
2012-07-31,9.85,9.98,9.53,9.58,8.2813,119800.0,0.0,1.0
2012-08-08,9.7,9.99,9.63,9.68,8.3678,101000.0,0.0,1.0
2012-08-16,9.53,9.96,9.47,9.93,8.5839,104500.0,0.0,1.0
2012-08-24,10.46,10.73,10.46,10.59,9.1544,66800.0,0.0,1.0
2012-09-04,10.25,10.41,10.2,10.3,8.9037,30000.0,0.0,1.0
2012-09-12,11.65,11.65,11.34,11.38,9.8373,131400.0,0.0,1.0
2012-09-20,11.59,11.79,11.31,11.71,10.1226,89000.0,0.0,1.0
2012-09-28,10.48,10.95,10.48,10.86,9.3878,75300.0,0.0,1.0
2012-10-08,11.05,11.13,11.01,11.13,9.6212,7400.0,0.0,1.0
2012-10-16,11.21,11.44,11.12,11.35,9.8114,58900.0,0.0,1.0
2012-10-24,11.23,11.3,10.91,10.96,9.4743,51800.0,0.0,1.0
2012-11-05,12.17,12.23,11.74,11.96,10.3387,93900.0,0.0,1.0
2012-11-13,11.46,11.62,11.32,11.39,9.846,47600.0,0.0,1.0
2012-11-21,11.03,11.1,10.99,11.07,9.5694,25900.0,0.0,1.0
2012-11-30,10.4,10.42,10.24,10.36,8.9556,48800.0,0.0,1.0
2012-12-10,9.6,9.97,9.55,9.81,8.4802,70400.0,0.0,1.0
2012-12-18,9.7,9.72,9.62,9.68,8.3678,162900.0,0.0,1.0
2012-12-27,9.43,9.59,9.31,9.43,8.1517,91200.0,0.0,1.0
2013-01-07,9.32,9.37,9.14,9.23,7.9788,110300.0,0.0,1.0
2013-01-15,8.57,8.62,8.4,8.43,7.2872,165800.0,0.0,1.0
2013-01-24,8.68,8.81,8.26,8.27,7.1489,220500.0,0.0,1.0
2013-02-01,8.66,8.79,8.61,8.71,7.5293,117300.0,0.0,1.0
2013-02-11,9.14,9.15,8.69,8.75,7.5639,65900.0,0.0,1.0
2013-02-20,8.1,8.1,7.67,7.72,6.6735,157500.0,0.0,1.0
2013-02-28,7.91,7.92,7.76,7.85,6.7859,47100.0,0.0,1.0
2013-03-08,8.85,8.98,8.7,8.94,7.7281,139500.0,0.0,1.0
2013-03-18,9.28,9.28,8.94,9.02,7.7973,124000.0,0.0,1.0
2013-03-26,8.35,8.64,8.35,8.62,7.4515,79300.0,0.0,1.0
2013-04-04,7.79,7.82,7.7,7.74,6.6908,46700.0,0.0,1.0
2013-04-12,7.95,8.01,7.74,7.93,6.855,65900.0,0.0,1.0
2013-04-22,7.18,7.37,7.15,7.23,6.2499,37500.0,0.0,1.0
2013-04-30,8.06,8.08,7.91,7.92,6.8464,28500.0,0.0,1.0
2013-05-08,8.09,8.29,8.07,8.24,7.123,39000.0,0.0,1.0
2013-05-16,7.53,7.66,7.39,7.45,6.4401,89700.0,0.0,1.0
2013-05-24,7.5,7.57,7.34,7.45,6.4401,45000.0,0.0,1.0
2013-06-04,7.15,7.32,7.05,7.24,6.2586,96500.0,0.0,1.0
2013-06-12,7.18,7.23,7.08,7.1,6.1375,54900.0,0.0,1.0
2013-06-20,7.0,7.01,6.07,6.09,5.2644,281200.0,0.0,1.0
2013-06-28,6.02,6.29,5.99,6.2,5.3595,109200.0,0.0,1.0
2013-07-09,6.03,6.03,5.75,5.81,5.0224,120300.0,0.0,1.0
2013-07-17,6.02,6.14,6.02,6.11,5.2817,47700.0,0.0,1.0
2013-07-25,6.41,6.49,6.38,6.42,5.5497,53300.0,0.0,1.0
2013-08-02,6.7,6.75,6.49,6.74,5.8263,67200.0,0.0,1.0
2013-08-12,6.87,6.88,6.4,6.49,5.6102,196200.0,0.0,1.0
2013-08-20,6.51,6.84,6.51,6.74,5.8263,56800.0,0.0,1.0
2013-08-28,6.67,6.84,6.67,6.73,5.8177,76800.0,0.0,1.0
2013-09-06,7.22,7.32,7.22,7.29,6.3018,63500.0,0.0,1.0
2013-09-16,7.48,7.75,7.41,7.69,6.6476,255500.0,0.0,1.0
2013-09-24,7.9,7.92,7.75,7.76,6.7081,49800.0,0.0,1.0
2013-10-02,8.14,8.27,8.12,8.15,7.0452,159300.0,0.0,1.0
2013-10-10,8.9,9.08,8.81,9.05,7.8232,165000.0,0.0,1.0
2013-10-18,9.19,9.5,9.1,9.42,8.143,125800.0,0.0,1.0
2013-10-28,9.04,9.3,9.04,9.28,8.022,137100.0,0.0,1.0
2013-11-05,9.22,9.66,9.22,9.41,8.1344,128200.0,0.0,1.0
2013-11-13,8.58,9.13,8.58,9.03,7.8059,212100.0,0.0,1.0
2013-11-21,8.72,8.9,8.55,8.89,7.6849,118000.0,0.0,1.0
2013-12-02,8.71,8.82,8.68,8.76,7.5725,117700.0,0.0,1.0
2013-12-10,8.61,9.0,8.59,8.88,7.6762,419300.0,0.0,1.0
2013-12-18,8.69,8.7,8.39,8.41,7.2699,170300.0,0.0,1.0
2013-12-27,8.21,8.37,8.15,8.31,7.1835,117700.0,0.0,1.0
2014-01-07,8.36,8.5,8.35,8.43,7.2872,93900.0,0.0,1.0
2014-01-15,8.49,8.69,8.47,8.58,7.4169,122400.0,0.0,1.0
2014-01-24,8.37,8.46,8.26,8.39,7.2527,87500.0,0.0,1.0
2014-02-03,7.25,7.29,6.84,6.9,5.9646,317200.0,0.0,1.0
2014-02-11,7.0,7.16,6.97,7.07,6.1116,79600.0,0.0,1.0
2014-02-20,7.07,7.19,6.93,7.12,6.1548,171500.0,0.0,1.0
2014-02-28,7.36,7.44,7.34,7.39,6.3882,49100.0,0.0,1.0
2014-03-10,7.85,7.85,7.67,7.68,6.6389,206400.0,0.0,1.0
2014-03-18,7.45,7.85,7.25,7.59,6.5611,610400.0,0.0,1.0
2014-03-26,7.53,7.64,7.3,7.31,6.3191,118900.0,0.0,1.0
2014-04-03,7.62,7.75,7.62,7.69,6.6476,43400.0,0.0,1.0
2014-04-11,7.28,7.32,7.16,7.16,6.1894,52600.0,0.0,1.0
2014-04-22,7.78,8.07,7.74,8.0,6.9155,202500.0,0.0,1.0
2014-04-30,7.95,8.01,7.69,7.8,6.7426,74700.0,0.0,1.0
2014-05-08,7.27,7.28,6.95,7.01,6.0597,180500.0,0.0,1.0
2014-05-16,6.6,6.6,6.4,6.52,5.6362,92200.0,0.0,1.0
2014-05-27,6.77,6.86,6.75,6.78,5.9512,92000.0,0.0,1.0
2014-06-04,6.88,6.98,6.8,6.94,6.0917,159900.0,0.0,1.0
2014-06-12,7.13,7.24,7.08,7.15,6.364,77800.0,0.05,1.0
2014-06-20,7.27,7.63,7.22,7.58,6.7467,263400.0,0.0,1.0
2014-06-30,7.38,7.58,7.34,7.49,6.6666,70100.0,0.0,1.0
2014-07-09,7.27,7.35,7.12,7.13,6.3462,98200.0,0.0,1.0
2014-07-17,6.65,6.69,6.54,6.56,5.8389,204200.0,0.0,1.0
2014-07-25,6.74,6.75,6.61,6.66,5.9279,182900.0,0.0,1.0
2014-08-04,6.15,6.3,6.13,6.28,5.5896,69300.0,0.0,1.0
2014-08-12,6.42,6.43,6.28,6.36,5.6609,147300.0,0.0,1.0
2014-08-20,6.36,6.41,6.3,6.31,5.6164,104000.0,0.0,1.0
2014-08-28,6.82,6.83,6.72,6.73,5.9902,56800.0,0.0,1.0
2014-09-08,6.56,6.58,6.26,6.31,5.6164,147600.0,0.0,1.0
2014-09-16,6.35,6.55,6.34,6.52,5.8493,134300.0,0.0,1.0
2014-09-24,6.05,6.05,5.82,5.9,5.293,136100.0,0.0,1.0
2014-10-02,5.9,5.93,5.61,5.65,5.0688,260100.0,0.0,1.0
2014-10-10,5.28,5.33,4.93,5.08,4.5574,478900.0,0.0,1.0
2014-10-20,4.84,5.0,4.82,4.88,4.378,161300.0,0.0,1.0
2014-10-28,4.49,4.56,4.44,4.56,4.0909,127400.0,0.0,1.0
2014-11-05,4.01,4.03,3.93,3.98,3.5706,262700.0,0.0,1.0
2014-11-13,4.09,4.09,3.77,3.81,3.418,514700.0,0.0,1.0
2014-11-21,3.9,4.07,3.89,4.03,3.6154,179100.0,0.0,1.0
2014-12-02,3.22,3.41,3.11,3.14,2.817,461800.0,0.0,1.0
2014-12-10,3.1,3.12,2.91,3.0,2.6914,724400.0,0.0,1.0
2014-12-18,3.41,3.55,3.22,3.26,2.9742,382800.0,0.0,1.0
2014-12-29,3.61,3.73,3.56,3.66,3.3391,409800.0,0.0,1.0
2015-01-07,3.6,3.68,3.49,3.54,3.2296,231700.0,0.0,1.0
2015-01-15,2.96,3.04,2.7,2.75,2.5089,552700.0,0.0,1.0
2015-01-26,2.85,2.93,2.83,2.87,2.6184,214800.0,0.0,1.0
2015-02-03,3.25,3.5,3.22,3.3,3.0107,488700.0,0.0,1.0
2015-02-11,3.11,3.18,2.94,3.13,2.8556,267600.0,0.0,1.0
2015-02-20,3.14,3.18,3.01,3.03,2.7644,190100.0,0.0,1.0
2015-03-02,2.92,2.97,2.82,2.97,2.7096,267600.0,0.0,1.0
2015-03-10,2.95,2.97,2.88,2.9,2.6458,316800.0,0.0,1.0
2015-03-18,2.82,3.04,2.81,3.02,2.8023,435000.0,0.0,1.0
2015-03-26,3.66,3.97,3.47,3.62,3.359,569900.0,0.0,1.0
2015-04-06,3.83,4.07,3.76,4.03,3.7394,324800.0,0.0,1.0
2015-04-14,4.16,4.18,4.04,4.07,3.7765,200000.0,0.0,1.0
2015-04-22,4.36,4.41,4.25,4.33,4.0178,349200.0,0.0,1.0
2015-04-30,4.51,4.65,4.35,4.55,4.2219,414500.0,0.0,1.0
2015-05-08,4.08,4.28,4.04,4.24,3.9343,232700.0,0.0,1.0
2015-05-18,4.11,4.21,4.08,4.18,3.8786,104400.0,0.0,1.0
2015-05-27,4.06,4.08,4.0,4.0,3.7116,148300.0,0.0,1.0
2015-06-04,4.07,4.07,3.9,4.01,3.7209,148500.0,0.0,1.0
2015-06-12,4.01,4.07,3.96,3.96,3.7192,82400.0,0.0,1.0
2015-06-22,3.83,3.83,3.69,3.69,3.4656,231000.0,0.0,1.0
2015-06-30,3.96,4.02,3.94,3.99,3.7474,96000.0,0.0,1.0
2015-07-09,3.86,3.91,3.76,3.76,3.5313,129600.0,0.0,1.0
2015-07-17,3.35,3.39,3.17,3.2,3.0054,337200.0,0.0,1.0
2015-07-27,2.85,2.86,2.71,2.79,2.6203,250700.0,0.0,1.0
2015-08-04,2.91,3.08,2.91,2.99,2.8082,52700.0,0.0,1.0
2015-08-12,3.0,3.16,2.95,3.09,2.9021,119300.0,0.0,1.0
2015-08-20,2.7,2.83,2.64,2.68,2.517,74000.0,0.0,1.0
2015-08-28,3.09,3.41,3.09,3.28,3.0805,335700.0,0.0,1.0
2015-09-08,2.77,2.85,2.66,2.82,2.6485,171700.0,0.0,1.0
2015-09-16,2.74,2.88,2.74,2.86,2.7364,146100.0,0.0,1.0
2015-09-24,2.68,2.78,2.61,2.61,2.4972,117800.0,0.0,1.0
2015-10-02,2.66,2.82,2.65,2.79,2.6694,141600.0,0.0,1.0
2015-10-12,3.03,3.03,2.81,2.83,2.7077,95600.0,0.0,1.0
2015-10-20,2.67,2.78,2.67,2.74,2.6216,114000.0,0.0,1.0
2015-10-28,2.58,2.73,2.54,2.65,2.5355,171200.0,0.0,1.0
2015-11-05,2.67,2.8,2.63,2.79,2.6694,228300.0,0.0,1.0
2015-11-13,2.33,2.33,2.16,2.17,2.0762,343500.0,0.0,1.0
2015-11-23,2.0,2.09,1.98,2.03,1.9423,281600.0,0.0,1.0
2015-12-02,2.14,2.17,2.05,2.09,1.9997,259300.0,0.0,1.0
2015-12-10,1.69,1.75,1.68,1.7,1.6265,235000.0,0.0,1.0
2015-12-18,1.64,1.71,1.6,1.68,1.6314,157500.0,0.0,1.0
2015-12-29,1.7,1.81,1.69,1.74,1.6896,96800.0,0.0,1.0
2016-01-07,1.66,1.73,1.61,1.63,1.5828,103500.0,0.0,1.0
2016-01-15,1.32,1.32,1.23,1.28,1.243,248400.0,0.0,1.0
2016-01-26,1.19,1.25,1.14,1.24,1.2041,211500.0,0.0,1.0
2016-02-03,1.26,1.33,1.15,1.27,1.2332,220500.0,0.0,1.0
2016-02-11,1.19,1.22,1.16,1.19,1.1556,60600.0,0.0,1.0
2016-02-22,1.44,1.48,1.41,1.42,1.3789,79400.0,0.0,1.0
2016-03-01,1.45,1.53,1.38,1.49,1.4469,174200.0,0.0,1.0
2016-03-09,1.65,1.72,1.58,1.65,1.6022,294100.0,0.0,1.0
2016-03-17,1.69,1.72,1.63,1.68,1.6314,273500.0,0.0,1.0
2016-03-28,1.66,1.71,1.65,1.65,1.6022,65300.0,0.0,1.0
2016-04-05,1.65,1.68,1.62,1.62,1.5731,139900.0,0.0,1.0
2016-04-13,1.81,1.86,1.77,1.77,1.7188,154900.0,0.0,1.0
2016-04-21,2.1,2.1,1.86,1.89,1.8353,105700.0,0.0,1.0
2016-04-29,2.0,2.08,1.91,1.94,1.8838,84500.0,0.0,1.0
2016-05-09,1.91,1.91,1.73,1.84,1.7867,249200.0,0.0,1.0
2016-05-17,1.94,1.96,1.91,1.93,1.8741,44800.0,0.0,1.0
2016-05-25,1.72,1.78,1.7,1.77,1.7188,90700.0,0.0,1.0
2016-06-03,1.69,1.8,1.69,1.72,1.6702,122500.0,0.0,1.0
2016-06-13,1.76,1.76,1.71,1.72,1.6702,97200.0,0.0,1.0
2016-06-21,1.6,1.74,1.6,1.72,1.6702,57100.0,0.0,1.0
2016-06-29,1.89,1.92,1.82,1.84,1.7867,73300.0,0.0,1.0
2016-07-08,1.75,1.77,1.74,1.75,1.6993,39900.0,0.0,1.0
2016-07-18,1.76,1.8,1.76,1.79,1.7382,34800.0,0.0,1.0
2016-07-26,1.61,1.65,1.61,1.65,1.6022,25300.0,0.0,1.0
2016-08-03,1.6,1.64,1.58,1.6,1.5537,99200.0,0.0,1.0
2016-08-11,1.65,2.0,1.63,1.98,1.9227,350600.0,0.0,1.0
2016-08-19,2.11,2.12,2.0,2.01,1.9518,158900.0,0.0,1.0
2016-08-29,1.82,1.87,1.82,1.85,1.7965,16600.0,0.0,1.0
2016-09-07,1.93,1.99,1.93,1.97,1.913,14700.0,0.0,1.0
2016-09-15,1.91,1.98,1.88,1.95,1.8936,131800.0,0.0,1.0
2016-09-23,1.95,1.95,1.83,1.89,1.8353,219300.0,0.0,1.0
2016-10-03,1.99,1.99,1.94,1.99,1.9324,34400.0,0.0,1.0
2016-10-11,2.12,2.15,2.05,2.07,2.0101,110400.0,0.0,1.0
2016-10-19,2.09,2.11,2.05,2.06,2.0004,43700.0,0.0,1.0
2016-10-27,1.85,1.9,1.85,1.85,1.7965,36700.0,0.0,1.0
2016-11-04,1.82,1.84,1.78,1.8,1.7479,35100.0,0.0,1.0
2016-11-14,1.76,1.78,1.75,1.76,1.7091,51600.0,0.0,1.0
2016-11-22,1.83,1.83,1.75,1.78,1.7285,40100.0,0.0,1.0
2016-12-01,1.82,2.03,1.82,1.93,1.8741,298000.0,0.0,1.0
2016-12-09,1.73,1.79,1.73,1.75,1.6993,142600.0,0.0,1.0
2016-12-19,1.74,1.74,1.67,1.67,1.6217,90100.0,0.0,1.0
2016-12-28,1.7,1.72,1.68,1.71,1.6605,91500.0,0.0,1.0
2017-01-06,1.83,1.86,1.8,1.8,1.7479,115300.0,0.0,1.0
2017-01-17,1.78,1.86,1.76,1.8,1.7479,64800.0,0.0,1.0
2017-01-25,1.76,1.81,1.72,1.73,1.6799,95100.0,0.0,1.0
2017-02-02,1.75,1.75,1.71,1.72,1.6702,71500.0,0.0,1.0
2017-02-10,1.7,1.83,1.7,1.79,1.7382,409300.0,0.0,1.0
2017-02-21,1.77,1.81,1.76,1.76,1.7091,95500.0,0.0,1.0
2017-03-01,1.65,1.71,1.65,1.7,1.6508,112700.0,0.0,1.0
2017-03-09,1.59,1.6,1.56,1.57,1.5246,95500.0,0.0,1.0
2017-03-17,1.56,1.66,1.55,1.6,1.5537,137300.0,0.0,1.0
2017-03-27,1.48,1.51,1.46,1.49,1.4469,127500.0,0.0,1.0
2017-04-04,1.6,1.6,1.56,1.58,1.5343,91100.0,0.0,1.0
2017-04-12,1.61,1.64,1.61,1.64,1.5925,75200.0,0.0,1.0
2017-04-21,1.54,1.58,1.47,1.53,1.4857,119700.0,0.0,1.0
2017-05-01,1.45,1.5,1.45,1.48,1.4372,50600.0,0.0,1.0
2017-05-09,1.46,1.47,1.41,1.43,1.3886,50000.0,0.0,1.0
2017-05-17,1.64,1.65,1.53,1.54,1.4954,36400.0,0.0,1.0
2017-05-25,1.58,1.58,1.46,1.48,1.4372,208200.0,0.0,1.0
2017-06-05,1.44,1.46,1.39,1.41,1.3692,82900.0,0.0,1.0
2017-06-13,1.34,1.37,1.3,1.33,1.2915,125100.0,0.0,1.0
2017-06-21,1.31,1.33,1.22,1.22,1.1847,109000.0,0.0,1.0
2017-06-29,1.29,1.31,1.29,1.3,1.2624,37200.0,0.0,1.0
2017-07-10,1.31,1.31,1.26,1.28,1.243,16600.0,0.0,1.0
2017-07-18,1.36,1.37,1.34,1.36,1.3206,39200.0,0.0,1.0
2017-07-26,1.35,1.36,1.33,1.34,1.3012,63600.0,0.0,1.0
2017-08-03,1.3,1.3,1.28,1.29,1.2527,27000.0,0.0,1.0
2017-08-11,1.24,1.25,1.18,1.19,1.1556,100900.0,0.0,1.0
2017-08-21,1.19,1.22,1.18,1.2,1.1653,63100.0,0.0,1.0
2017-08-29,1.24,1.33,1.24,1.29,1.2527,23500.0,0.0,1.0
2017-09-07,1.29,1.34,1.28,1.29,1.2527,12300.0,0.0,1.0
2017-09-15,1.23,1.26,1.07,1.07,1.039,438800.0,0.0,1.0
2017-09-25,1.26,1.3,1.25,1.29,1.2527,82100.0,0.0,1.0
2017-10-03,1.41,1.43,1.35,1.42,1.3789,59900.0,0.0,1.0
2017-10-11,1.56,1.64,1.54,1.64,1.5925,115000.0,0.0,1.0
2017-10-19,1.61,1.61,1.5,1.61,1.5634,35100.0,0.0,1.0
2017-10-27,1.56,1.6,1.54,1.6,1.5537,34700.0,0.0,1.0
2017-11-06,1.56,1.59,1.49,1.54,1.4954,128200.0,0.0,1.0
2017-11-14,1.49,1.5,1.47,1.48,1.4372,43800.0,0.0,1.0
2017-11-22,1.48,1.53,1.48,1.49,1.4469,116900.0,0.0,1.0
2017-12-01,1.46,1.5,1.45,1.45,1.408,51300.0,0.0,1.0
2017-12-11,1.35,1.38,1.3,1.37,1.3303,49600.0,0.0,1.0
2017-12-19,1.27,1.28,1.26,1.26,1.2235,78000.0,0.0,1.0
2017-12-28,1.38,1.43,1.38,1.4,1.3595,119100.0,0.0,1.0
2018-01-08,1.44,1.44,1.42,1.44,1.3983,119300.0,0.0,1.0
2018-01-17,1.46,1.46,1.44,1.45,1.408,28300.0,0.0,1.0
2018-01-25,1.46,1.5,1.46,1.48,1.4372,61000.0,0.0,1.0
2018-02-02,1.44,1.47,1.4,1.44,1.3983,65300.0,0.0,1.0
2018-02-12,1.27,1.33,1.27,1.33,1.2915,70300.0,0.0,1.0
2018-02-21,1.33,1.34,1.28,1.28,1.243,69700.0,0.0,1.0
2018-03-01,1.34,1.34,1.28,1.29,1.2527,14300.0,0.0,1.0
2018-03-09,1.3,1.31,1.28,1.29,1.2527,69100.0,0.0,1.0
2018-03-19,1.32,1.35,1.32,1.34,1.3012,27700.0,0.0,1.0
2018-03-27,1.38,1.39,1.34,1.35,1.3109,49200.0,0.0,1.0
2018-04-05,1.31,1.33,1.25,1.26,1.2235,273200.0,0.0,1.0
2018-04-13,1.35,1.39,1.33,1.36,1.3206,72500.0,0.0,1.0
2018-04-23,1.6,1.6,1.53,1.57,1.5246,136600.0,0.0,1.0
2018-05-01,1.8,1.9,1.78,1.83,1.777,180500.0,0.0,1.0
2018-05-09,2.02,2.14,2.02,2.12,2.0586,620600.0,0.0,1.0
2018-05-17,2.05,2.1,2.03,2.04,1.981,664300.0,0.0,1.0
2018-05-25,2.3,2.3,2.12,2.27,2.2043,518800.0,0.0,1.0
2018-06-05,2.39,2.42,2.24,2.36,2.2917,428600.0,0.0,1.0
2018-06-13,2.39,2.45,2.36,2.4,2.3305,401700.0,0.0,1.0
2018-06-21,2.36,2.36,2.28,2.31,2.2431,178400.0,0.0,1.0
2018-06-29,2.77,2.83,2.69,2.77,2.6898,641600.0,0.0,1.0
2018-07-10,3.33,3.48,3.32,3.41,3.3113,1388600.0,0.0,1.0
2018-07-18,3.52,3.65,3.37,3.59,3.4861,999100.0,0.0,1.0
2018-07-26,3.33,3.4,3.28,3.35,3.253,318300.0,0.0,1.0
2018-08-03,3.17,3.27,3.16,3.22,3.1268,581300.0,0.0,1.0
2018-08-13,3.22,3.22,3.02,3.06,2.9714,533600.0,0.0,1.0
2018-08-21,3.38,3.58,3.31,3.47,3.3696,575500.0,0.0,1.0
2018-08-29,3.44,3.5,3.42,3.46,3.3599,149800.0,0.0,1.0
2018-09-07,3.19,3.24,3.16,3.21,3.1489,119200.0,0.0,1.0
2018-09-17,3.61,3.65,3.53,3.55,3.4825,185700.0,0.0,1.0
2018-09-25,3.51,3.7,3.41,3.44,3.3746,703300.0,0.0,1.0
2018-10-03,3.48,3.51,3.36,3.45,3.3844,776300.0,0.0,1.0
2018-10-11,3.14,3.21,2.99,3.0,2.9429,497800.0,0.0,1.0
2018-10-19,3.04,3.1,2.97,2.99,2.9331,229600.0,0.0,1.0
2018-10-29,2.46,2.49,2.27,2.31,2.2661,321100.0,0.0,1.0
2018-11-06,2.38,2.42,2.32,2.39,2.3445,181300.0,0.0,1.0
2018-11-14,2.41,2.42,2.12,2.15,2.1091,243400.0,0.0,1.0
2018-11-23,2.16,2.17,2.1,2.13,2.0895,43000.0,0.0,1.0
2018-12-03,2.17,2.23,2.15,2.18,2.1385,139500.0,0.0,1.0
2018-12-12,1.92,1.95,1.87,1.88,1.8442,219900.0,0.0,1.0
2018-12-20,1.66,1.66,1.55,1.62,1.5892,302600.0,0.0,1.0
2018-12-31,1.7,1.88,1.69,1.87,1.8344,240200.0,0.0,1.0
2019-01-09,2.06,2.11,2.03,2.09,2.0502,135900.0,0.0,1.0
2019-01-17,1.92,1.96,1.9,1.94,1.9031,40400.0,0.0,1.0
2019-01-28,1.84,1.85,1.77,1.79,1.756,16800.0,0.0,1.0
2019-02-05,1.93,1.94,1.88,1.92,1.8835,42500.0,0.0,1.0
2019-02-13,1.93,2.0,1.93,1.98,1.9423,90000.0,0.0,1.0
2019-02-22,2.03,2.1,2.02,2.07,2.0306,78900.0,0.0,1.0
2019-03-04,2.0,2.04,1.98,1.98,1.9423,74400.0,0.0,1.0
2019-03-12,2.07,2.16,2.06,2.11,2.0699,143000.0,0.0,1.0
2019-03-20,2.18,2.18,2.12,2.14,2.0993,155900.0,0.0,1.0
2019-03-28,1.81,1.87,1.81,1.85,1.85,138200.0,0.035,1.0
2019-04-05,1.79,1.86,1.77,1.84,1.84,88400.0,0.0,1.0
2019-04-15,1.88,1.88,1.83,1.86,1.86,132000.0,0.0,1.0
2019-04-24,1.95,1.97,1.89,1.92,1.92,158900.0,0.0,1.0
2019-05-02,1.91,1.91,1.87,1.89,1.89,34600.0,0.0,1.0
2019-05-10,1.8,1.83,1.78,1.78,1.78,103500.0,0.0,1.0
2019-05-20,1.72,1.73,1.68,1.7,1.7,189300.0,0.0,1.0
2019-05-29,1.52,1.56,1.5,1.51,1.51,98100.0,0.0,1.0
2019-06-06,1.53,1.54,1.51,1.51,1.51,68000.0,0.0,1.0
2019-06-14,1.47,1.47,1.38,1.4,1.4,122100.0,0.0,1.0
2019-06-24,1.43,1.43,1.38,1.39,1.39,102000.0,0.0,1.0
2019-07-02,1.44,1.44,1.35,1.36,1.36,85300.0,0.0,1.0
2019-07-11,1.5,1.5,1.45,1.47,1.47,167500.0,0.0,1.0
2019-07-19,1.43,1.46,1.42,1.45,1.45,102600.0,0.0,1.0
2019-07-29,1.38,1.43,1.38,1.4,1.4,121600.0,0.0,1.0
2019-08-06,1.45,1.46,1.42,1.43,1.43,201500.0,0.0,1.0
2019-08-09,1.45,1.48,1.42,1.43,1.43,40800.0,0.0,1.0